submission_id,age,attentionCheck,attentionCheckResult,comments,decision1,decision2,education,experiment_duration,experiment_end_time,experiment_start_time,gender,informationSource,itemName,itemNr,languages,probs,prolific_pid,prolific_session_id,prolific_study_id,responseTime,trialNR
524,29,,,,50,NA,Graduated College,87020,1739366775369,1739366688349,male,direct,,1,english,,670fe2bebfbaefccb42e7aaa,67aca118171fb14c5ec4614d,67ac94cc580e0fd8d3bb8a3c,9998,0
524,29,,,,NA,100,Graduated College,87020,1739366775369,1739366688349,male,direct,,1,english,,670fe2bebfbaefccb42e7aaa,67aca118171fb14c5ec4614d,67ac94cc580e0fd8d3bb8a3c,4222,0
547,32,,,,60,NA,Higher degree,127581,1739366785228,1739366657647,male,indirect,,2,English ,,67780c3c21fa6d6bc741de92,67aca0f75bc55964c09f98a3,67ac94cc580e0fd8d3bb8a3c,11008,0
547,32,,,,NA,64,Higher degree,127581,1739366785228,1739366657647,male,indirect,,2,English ,,67780c3c21fa6d6bc741de92,67aca0f75bc55964c09f98a3,67ac94cc580e0fd8d3bb8a3c,5954,0
561,34,,,,20,NA,Higher degree,131430,1739366792775,1739366661345,female,direct,,1,English,,6669b12d7454f7e1e6b2a854,67aca0f848ddc8bebe25f6ca,67ac94cc580e0fd8d3bb8a3c,9152,0
561,34,,,,NA,90,Higher degree,131430,1739366792775,1739366661345,female,direct,,1,English,,6669b12d7454f7e1e6b2a854,67aca0f848ddc8bebe25f6ca,67ac94cc580e0fd8d3bb8a3c,8198,0
583,57,,,,72,NA,Graduated College,139801,1739366796767,1739366656966,male,direct,,1,"English, Afrikaans",,5d2b08784588590018cf70bb,67aca0f0cd46fdb5b3070550,67ac94cc580e0fd8d3bb8a3c,12034,0
583,57,,,,NA,99,Graduated College,139801,1739366796767,1739366656966,male,direct,,1,"English, Afrikaans",,5d2b08784588590018cf70bb,67aca0f0cd46fdb5b3070550,67ac94cc580e0fd8d3bb8a3c,7845,0
513,61,,,,14,NA,Graduated High-school,154404,1739366823064,1739366668660,female,indirect,,2,english,,63a0ba2b090476e91839f62e,67aca10400e422568df461a8,67ac94cc580e0fd8d3bb8a3c,8113,0
513,61,,,,NA,67,Graduated High-school,154404,1739366823064,1739366668660,female,indirect,,2,english,,63a0ba2b090476e91839f62e,67aca10400e422568df461a8,67ac94cc580e0fd8d3bb8a3c,5699,0
507,79,,,,81,NA,Graduated College,168707,1739366854231,1739366685524,male,indirect,,2,English,,5706296bac75a4000f94a28d,67aca111ecf87f4eb27e2e0d,67ac94cc580e0fd8d3bb8a3c,17882,0
507,79,,,,NA,96,Graduated College,168707,1739366854231,1739366685524,male,indirect,,2,English,,5706296bac75a4000f94a28d,67aca111ecf87f4eb27e2e0d,67ac94cc580e0fd8d3bb8a3c,15606,0
478,39,,,,16,NA,Graduated High-school,186807,1739366879677,1739366692870,male,direct,,1,english,,583c7c44164cd30001c345d6,67aca11914717ea2eacf1f19,67ac94cc580e0fd8d3bb8a3c,14170,0
478,39,,,,NA,56,Graduated High-school,186807,1739366879677,1739366692870,male,direct,,1,english,,583c7c44164cd30001c345d6,67aca11914717ea2eacf1f19,67ac94cc580e0fd8d3bb8a3c,11477,0
479,31,,,Interesting study,15,NA,Higher degree,148556,1739366923346,1739366774790,female,direct,,1,English,,572f8258ad13160010008a61,67aca16ca18cace25c82a9b8,67ac94cc580e0fd8d3bb8a3c,15318,0
479,31,,,Interesting study,NA,70,Higher degree,148556,1739366923346,1739366774790,female,direct,,1,English,,572f8258ad13160010008a61,67aca16ca18cace25c82a9b8,67ac94cc580e0fd8d3bb8a3c,6143,0
480,23,,,,21,NA,Graduated College,159718,1739366922972,1739366763254,female,direct,,1,English,,5ff8442a0d726a59d5325267,67aca14e90206ff885a007b3,67ac94cc580e0fd8d3bb8a3c,10193,0
480,23,,,,NA,77,Graduated College,159718,1739366922972,1739366763254,female,direct,,1,English,,5ff8442a0d726a59d5325267,67aca14e90206ff885a007b3,67ac94cc580e0fd8d3bb8a3c,6089,0
481,30,,,,31,NA,Higher degree,114904,1739366925273,1739366810369,male,direct,,1,English,,67838ffbade9ade16f6faa70,67aca196b505db2b5d73e9d7,67ac94cc580e0fd8d3bb8a3c,14742,0
481,30,,,,NA,85,Higher degree,114904,1739366925273,1739366810369,male,direct,,1,English,,67838ffbade9ade16f6faa70,67aca196b505db2b5d73e9d7,67ac94cc580e0fd8d3bb8a3c,10740,0
482,31,,,,80,NA,Graduated College,157131,1739366933076,1739366775945,female,indirect,,2,English ,,6776b2f6d81255b031c95eae,67aca16b354eb70809af436c,67ac94cc580e0fd8d3bb8a3c,19524,0
482,31,,,,NA,86,Graduated College,157131,1739366933076,1739366775945,female,indirect,,2,English ,,6776b2f6d81255b031c95eae,67aca16b354eb70809af436c,67ac94cc580e0fd8d3bb8a3c,17996,0
483,32,,,,11,NA,Graduated High-school,116260,1739366936966,1739366820706,female,indirect,,2,English ,,5aea25acd9f2be0001933493,67aca199d891f6a58673e9ba,67ac94cc580e0fd8d3bb8a3c,11986,0
483,32,,,,NA,65,Graduated High-school,116260,1739366936966,1739366820706,female,indirect,,2,English ,,5aea25acd9f2be0001933493,67aca199d891f6a58673e9ba,67ac94cc580e0fd8d3bb8a3c,7380,0
484,64,,,,12,NA,Higher degree,241388,1739366949076,1739366707688,female,direct,,1,English,,5c79c84a54c5d600175fd005,67aca11f3e0baf4356ebee97,67ac94cc580e0fd8d3bb8a3c,10294,0
484,64,,,,NA,37,Higher degree,241388,1739366949076,1739366707688,female,direct,,1,English,,5c79c84a54c5d600175fd005,67aca11f3e0baf4356ebee97,67ac94cc580e0fd8d3bb8a3c,13107,0
485,24,,,,42,NA,Graduated College,128651,1739366951744,1739366823093,male,indirect,,2,English,,6101e16e46ab830d098f1436,67aca1a311cf8e94d1b9cdbc,67ac94cc580e0fd8d3bb8a3c,9879,0
485,24,,,,NA,68,Graduated College,128651,1739366951744,1739366823093,male,indirect,,2,English,,6101e16e46ab830d098f1436,67aca1a311cf8e94d1b9cdbc,67ac94cc580e0fd8d3bb8a3c,4440,0
486,34,,,,23,NA,Graduated College,115409,1739366957080,1739366841671,female,indirect,,2,English,,67730610494c7699138eda38,67aca1abf3161f406a548ec4,67ac94cc580e0fd8d3bb8a3c,11352,0
486,34,,,,NA,4,Graduated College,115409,1739366957080,1739366841671,female,indirect,,2,English,,67730610494c7699138eda38,67aca1abf3161f406a548ec4,67ac94cc580e0fd8d3bb8a3c,4720,0
488,25,,,,16,NA,Higher degree,153855,1739366969568,1739366815713,male,direct,,1,English,,67730189e3ebfb022ba1cfae,67aca191cb9dfd2c92debaad,67ac94cc580e0fd8d3bb8a3c,15248,0
488,25,,,,NA,30,Higher degree,153855,1739366969568,1739366815713,male,direct,,1,English,,67730189e3ebfb022ba1cfae,67aca191cb9dfd2c92debaad,67ac94cc580e0fd8d3bb8a3c,16917,0
489,32,,,,20,NA,Graduated College,184990,1739366974292,1739366789302,female,direct,,1,English,,5ae1e99638df950001454b0e,67aca16849b8ade4c204a5b4,67ac94cc580e0fd8d3bb8a3c,14526,0
489,32,,,,NA,50,Graduated College,184990,1739366974292,1739366789302,female,direct,,1,English,,5ae1e99638df950001454b0e,67aca16849b8ade4c204a5b4,67ac94cc580e0fd8d3bb8a3c,9038,0
491,29,,,No comment,100,NA,Higher degree,190955,1739366976786,1739366785831,female,indirect,,2,"English, French and Yoruba",,6659f710cfb4cac678381a25,67aca16a5819345b13ea3d58,67ac94cc580e0fd8d3bb8a3c,9936,0
491,29,,,No comment,NA,100,Higher degree,190955,1739366976786,1739366785831,female,indirect,,2,"English, French and Yoruba",,6659f710cfb4cac678381a25,67aca16a5819345b13ea3d58,67ac94cc580e0fd8d3bb8a3c,9688,0
492,24,,,,55,NA,Higher degree,153142,1739366989825,1739366836683,female,direct,,1,English,,6762e3b57392fa8565664b52,67aca1ada2cb8bde5314f0c6,67ac94cc580e0fd8d3bb8a3c,12760,0
492,24,,,,NA,75,Higher degree,153142,1739366989825,1739366836683,female,direct,,1,English,,6762e3b57392fa8565664b52,67aca1ada2cb8bde5314f0c6,67ac94cc580e0fd8d3bb8a3c,8936,0
493,18,,,,1,NA,Graduated High-school,191333,1739366998487,1739366807154,male,indirect,,2,English,,672686197f191ae3064f2fb6,67aca172d6a7d4e106c2d2e9,67ac94cc580e0fd8d3bb8a3c,17866,0
493,18,,,,NA,30,Graduated High-school,191333,1739366998487,1739366807154,male,indirect,,2,English,,672686197f191ae3064f2fb6,67aca172d6a7d4e106c2d2e9,67ac94cc580e0fd8d3bb8a3c,9784,0
494,49,,,,20,NA,Higher degree,174577,1739366970845,1739366796268,female,indirect,,2,English,,5fd2c2c727a4dc0da4da81f1,67aca1988ae8c2a89081da49,67ac94cc580e0fd8d3bb8a3c,14906,0
494,49,,,,NA,65,Higher degree,174577,1739366970845,1739366796268,female,indirect,,2,English,,5fd2c2c727a4dc0da4da81f1,67aca1988ae8c2a89081da49,67ac94cc580e0fd8d3bb8a3c,21001,0
495,34,,,This was fun.,25,NA,Graduated High-school,305523,1739367022560,1739366717037,male,direct,,1,English,,6773d6d84f06b14a316648aa,67aca1132f7ebbbc3d39100c,67ac94cc580e0fd8d3bb8a3c,21521,0
495,34,,,This was fun.,NA,40,Graduated High-school,305523,1739367022560,1739366717037,male,direct,,1,English,,6773d6d84f06b14a316648aa,67aca1132f7ebbbc3d39100c,67ac94cc580e0fd8d3bb8a3c,21388,0
496,26,,,,25,NA,Graduated College,274719,1739367025485,1739366750766,male,indirect,,2,English,,6788c266c3a3dce361387c3d,67aca1038b61640c2845d204,67ac94cc580e0fd8d3bb8a3c,21088,0
496,26,,,,NA,80,Graduated College,274719,1739367025485,1739366750766,male,indirect,,2,English,,6788c266c3a3dce361387c3d,67aca1038b61640c2845d204,67ac94cc580e0fd8d3bb8a3c,27719,0
497,36,,,,72,NA,Graduated College,72023,1739367052601,1739366980578,female,indirect,,2,English,,6658c1554c1d2a4e2d02e301,67aca23cf7b0b5187d14f0d3,67ac94cc580e0fd8d3bb8a3c,5200,0
497,36,,,,NA,91,Graduated College,72023,1739367052601,1739366980578,female,indirect,,2,English,,6658c1554c1d2a4e2d02e301,67aca23cf7b0b5187d14f0d3,67ac94cc580e0fd8d3bb8a3c,4413,0
498,27,,,,67,NA,Graduated High-school,247226,1739367055530,1739366808304,female,indirect,,2,english,,60f5917414ac7d222d22db64,67aca166ecf87f4eb27e2e22,67ac94cc580e0fd8d3bb8a3c,12478,0
498,27,,,,NA,89,Graduated High-school,247226,1739367055530,1739366808304,female,indirect,,2,english,,60f5917414ac7d222d22db64,67aca166ecf87f4eb27e2e22,67ac94cc580e0fd8d3bb8a3c,8347,0
499,64,,,,20,NA,Higher degree,60810,1739367056418,1739366995608,female,direct,,1,English,,5c79c84a54c5d600175fd005,67aca11f3e0baf4356ebee97,67ac94cc580e0fd8d3bb8a3c,3325,0
499,64,,,,NA,33,Higher degree,60810,1739367056418,1739366995608,female,direct,,1,English,,5c79c84a54c5d600175fd005,67aca11f3e0baf4356ebee97,67ac94cc580e0fd8d3bb8a3c,4261,0
500,20,,,,84,NA,Higher degree,385935,1739367056947,1739366671012,female,direct,,1,English,,677808f862b2cacb1dd4a7fc,67aca0e3e0a70698a5c8bf35,67ac94cc580e0fd8d3bb8a3c,18577,0
500,20,,,,NA,90,Higher degree,385935,1739367056947,1739366671012,female,direct,,1,English,,677808f862b2cacb1dd4a7fc,67aca0e3e0a70698a5c8bf35,67ac94cc580e0fd8d3bb8a3c,6336,0
501,57,,,,6,NA,Higher degree,405897,1739367084291,1739366678394,male,direct,,1,English,,5fdb96141295b80008c31eb3,67aca0fdb25df158585d71b3,67ac94cc580e0fd8d3bb8a3c,43676,0
501,57,,,,NA,75,Higher degree,405897,1739367084291,1739366678394,male,direct,,1,English,,5fdb96141295b80008c31eb3,67aca0fdb25df158585d71b3,67ac94cc580e0fd8d3bb8a3c,45208,0
502,53,,,,25,NA,Graduated High-school,237949,1739367079504,1739366841555,female,indirect,,2,english,,5f5b2a65cb0a65239532cd00,67aca1a88b61640c2845d21a,67ac94cc580e0fd8d3bb8a3c,22018,0
502,53,,,,NA,76,Graduated High-school,237949,1739367079504,1739366841555,female,indirect,,2,english,,5f5b2a65cb0a65239532cd00,67aca1a88b61640c2845d21a,67ac94cc580e0fd8d3bb8a3c,13383,0
503,54,,,,27,NA,Higher degree,189022,1739367096484,1739366907462,female,direct,,1,English,,67891c3c3f359ce747685a70,67aca1e7a01d443294a242aa,67ac94cc580e0fd8d3bb8a3c,24664,0
503,54,,,,NA,81,Higher degree,189022,1739367096484,1739366907462,female,direct,,1,English,,67891c3c3f359ce747685a70,67aca1e7a01d443294a242aa,67ac94cc580e0fd8d3bb8a3c,15192,0
504,,,,,25,NA,,138665,1739367114647,1739366975982,,indirect,,2,,,6776f4047a445f68ee410143,67aca22bcad3828ac7a0080c,67ac94cc580e0fd8d3bb8a3c,11762,0
504,,,,,NA,50,,138665,1739367114647,1739366975982,,indirect,,2,,,6776f4047a445f68ee410143,67aca22bcad3828ac7a0080c,67ac94cc580e0fd8d3bb8a3c,6618,0
505,47,,,,65,NA,Higher degree,160103,1739367116734,1739366956631,female,indirect,,2,english,,55f6be3a32af74000b17021c,67aca21fc8df58b9501760e2,67ac94cc580e0fd8d3bb8a3c,10318,0
505,47,,,,NA,88,Higher degree,160103,1739367116734,1739366956631,female,indirect,,2,english,,55f6be3a32af74000b17021c,67aca21fc8df58b9501760e2,67ac94cc580e0fd8d3bb8a3c,5928,0
506,34,,,,41,NA,Higher degree,350294,1739367136491,1739366786197,female,indirect,,2,english,,664eed479edce1893498cc04,67aca16d4109492fc51bc174,67ac94cc580e0fd8d3bb8a3c,12980,0
506,34,,,,NA,90,Higher degree,350294,1739367136491,1739366786197,female,indirect,,2,english,,664eed479edce1893498cc04,67aca16d4109492fc51bc174,67ac94cc580e0fd8d3bb8a3c,6758,0
508,28,,,,20,NA,Graduated College,311133,1739367146936,1739366835803,male,direct,,1,english,,6778ea0c164e2c0665f31ab2,67aca17cfc2cc881587288b8,67ac94cc580e0fd8d3bb8a3c,32480,0
508,28,,,,NA,70,Graduated College,311133,1739367146936,1739366835803,male,direct,,1,english,,6778ea0c164e2c0665f31ab2,67aca17cfc2cc881587288b8,67ac94cc580e0fd8d3bb8a3c,14331,0
509,25,,,No comment,30,NA,Graduated College,408903,1739367159248,1739366750345,female,direct,,1,English,,678aa049c4e8067fc53cfd23,67aca13c5ff576bc47731516,67ac94cc580e0fd8d3bb8a3c,30604,0
509,25,,,No comment,NA,80,Graduated College,408903,1739367159248,1739366750345,female,direct,,1,English,,678aa049c4e8067fc53cfd23,67aca13c5ff576bc47731516,67ac94cc580e0fd8d3bb8a3c,11928,0
510,31,,,n/a,25,NA,Higher degree,231800,1739367176193,1739366944393,female,indirect,,2,englsih,,671ec2ffd89afa2ce6dea859,67aca21408847243b698c41d,67ac94cc580e0fd8d3bb8a3c,21451,0
510,31,,,n/a,NA,49,Higher degree,231800,1739367176193,1739366944393,female,indirect,,2,englsih,,671ec2ffd89afa2ce6dea859,67aca21408847243b698c41d,67ac94cc580e0fd8d3bb8a3c,12616,0
511,36,,,,28,NA,Higher degree,654386,1739367181871,1739366527485,female,indirect,,2,english,,677406a14c6e104dba32e029,67aca067672fd6e877a2defa,67ac94cc580e0fd8d3bb8a3c,61052,0
511,36,,,,NA,77,Higher degree,654386,1739367181871,1739366527485,female,indirect,,2,english,,677406a14c6e104dba32e029,67aca067672fd6e877a2defa,67ac94cc580e0fd8d3bb8a3c,12981,0
512,22,,,,11,NA,Graduated College,213970,1739367180759,1739366966789,male,indirect,,2,English,,6720a1549562a6af6a6f17a3,67aca22f15612be24c2be6ee,67ac94cc580e0fd8d3bb8a3c,36335,0
512,22,,,,NA,49,Graduated College,213970,1739367180759,1739366966789,male,indirect,,2,English,,6720a1549562a6af6a6f17a3,67aca22f15612be24c2be6ee,67ac94cc580e0fd8d3bb8a3c,31425,0
514,52,,,,83,NA,Graduated College,255625,1739367204466,1739366948841,male,indirect,,2,English,,61fa9016d42cb19beec49061,67aca21805eab5037bf6affb,67ac94cc580e0fd8d3bb8a3c,13961,0
514,52,,,,NA,96,Graduated College,255625,1739367204466,1739366948841,male,indirect,,2,English,,61fa9016d42cb19beec49061,67aca21805eab5037bf6affb,67ac94cc580e0fd8d3bb8a3c,25108,0
515,36,,,,25,NA,Graduated College,246204,1739367213451,1739366967247,male,direct,,1,English.,,5d7e1d2db5bd580017d11cec,67aca2159ed6b9b30e4ff85d,67ac94cc580e0fd8d3bb8a3c,20841,0
515,36,,,,NA,65,Graduated College,246204,1739367213451,1739366967247,male,direct,,1,English.,,5d7e1d2db5bd580017d11cec,67aca2159ed6b9b30e4ff85d,67ac94cc580e0fd8d3bb8a3c,20394,0
516,41,,,,35,NA,Graduated High-school,132086,1739367214171,1739367082085,male,direct,,1,english,,6418dc6fd0f852a233a10350,67aca2a0adcbb3fc55c8bf53,67ac94cc580e0fd8d3bb8a3c,11935,0
516,41,,,,NA,100,Graduated High-school,132086,1739367214171,1739367082085,male,direct,,1,english,,6418dc6fd0f852a233a10350,67aca2a0adcbb3fc55c8bf53,67ac94cc580e0fd8d3bb8a3c,7960,0
517,42,,,,70,NA,Higher degree,171698,1739367224408,1739367052710,male,direct,,1,English,,666d501b6228f821af5f1171,67aca2879221356aa15b5089,67ac94cc580e0fd8d3bb8a3c,18259,0
517,42,,,,NA,85,Higher degree,171698,1739367224408,1739367052710,male,direct,,1,English,,666d501b6228f821af5f1171,67aca2879221356aa15b5089,67ac94cc580e0fd8d3bb8a3c,10255,0
518,26,,,,11,NA,Graduated College,64703,1739367229882,1739367165179,male,indirect,,2,English,,6788c266c3a3dce361387c3d,67aca1038b61640c2845d204,67ac94cc580e0fd8d3bb8a3c,5944,0
518,26,,,,NA,84,Graduated College,64703,1739367229882,1739367165179,male,indirect,,2,English,,6788c266c3a3dce361387c3d,67aca1038b61640c2845d204,67ac94cc580e0fd8d3bb8a3c,3872,0
519,25,,,,30,NA,Higher degree,518632,1739367233417,1739366714785,male,indirect,,2,swahili,,676fb072a0f80a990bd4cd32,67aca1012f7ebbbc3d391009,67ac94cc580e0fd8d3bb8a3c,36867,0
519,25,,,,NA,90,Higher degree,518632,1739367233417,1739366714785,male,indirect,,2,swahili,,676fb072a0f80a990bd4cd32,67aca1012f7ebbbc3d391009,67ac94cc580e0fd8d3bb8a3c,16771,0
520,28,,,,50,NA,Graduated College,164687,1739367234722,1739367070035,female,indirect,,2,"English, Korean",,5e542832505b9f08adc26982,67aca28f2d4f33c85b683c52,67ac94cc580e0fd8d3bb8a3c,12708,0
520,28,,,,NA,80,Graduated College,164687,1739367234722,1739367070035,female,indirect,,2,"English, Korean",,5e542832505b9f08adc26982,67aca28f2d4f33c85b683c52,67ac94cc580e0fd8d3bb8a3c,5775,0
521,51,,,,10,NA,Graduated College,177230,1739367267566,1739367090336,male,indirect,,2,English,,5eac2d4144cc2607226aea28,67aca29b5ec5c06692c86465,67ac94cc580e0fd8d3bb8a3c,12727,0
521,51,,,,NA,74,Graduated College,177230,1739367267566,1739367090336,male,indirect,,2,English,,5eac2d4144cc2607226aea28,67aca29b5ec5c06692c86465,67ac94cc580e0fd8d3bb8a3c,6343,0
522,29,,,N/A,45,NA,Graduated College,208445,1739367268058,1739367059613,male,direct,,1,"English, Zulu",,5fd50a355025422fd25bb05b,67aca27ad3c46b95e6774159,67ac94cc580e0fd8d3bb8a3c,14960,0
522,29,,,N/A,NA,55,Graduated College,208445,1739367268058,1739367059613,male,direct,,1,"English, Zulu",,5fd50a355025422fd25bb05b,67aca27ad3c46b95e6774159,67ac94cc580e0fd8d3bb8a3c,7135,0
523,36,,,,60,NA,Graduated College,181720,1739367284449,1739367102729,female,indirect,,2,Lithuanian,,665cca1c1878dd393ff5090a,67aca1ce171fb14c5ec46176,67ac94cc580e0fd8d3bb8a3c,24970,0
523,36,,,,NA,90,Graduated College,181720,1739367284449,1739367102729,female,indirect,,2,Lithuanian,,665cca1c1878dd393ff5090a,67aca1ce171fb14c5ec46176,67ac94cc580e0fd8d3bb8a3c,8161,0
525,30,,,no additional comments,53,NA,Higher degree,33926,1739367307514,1739367273588,female,direct,,1,English,,5d3988e35a65a10016969b3d,67aca21ab3c2d74566ae74e5,67ac94cc580e0fd8d3bb8a3c,2917,0
525,30,,,no additional comments,NA,74,Higher degree,33926,1739367307514,1739367273588,female,direct,,1,English,,5d3988e35a65a10016969b3d,67aca21ab3c2d74566ae74e5,67ac94cc580e0fd8d3bb8a3c,7033,0
526,46,,,,10,NA,Graduated College,154851,1739367334723,1739367179872,female,indirect,,2,English,,56163e6e7ffc8a0005812df2,67aca208ca27d4b3908a7aba,67ac94cc580e0fd8d3bb8a3c,7975,0
526,46,,,,NA,75,Graduated College,154851,1739367334723,1739367179872,female,indirect,,2,English,,56163e6e7ffc8a0005812df2,67aca208ca27d4b3908a7aba,67ac94cc580e0fd8d3bb8a3c,7994,0
527,29,,,N/A,45,NA,Graduated College,47144,1739367331822,1739367284678,male,direct,,1,English,,5fd50a355025422fd25bb05b,67aca27ad3c46b95e6774159,67ac94cc580e0fd8d3bb8a3c,5131,0
527,29,,,N/A,NA,55,Graduated College,47144,1739367331822,1739367284678,male,direct,,1,English,,5fd50a355025422fd25bb05b,67aca27ad3c46b95e6774159,67ac94cc580e0fd8d3bb8a3c,3533,0
528,33,,,,50,NA,Graduated College,236089,1739367336978,1739367100889,male,direct,,1,English,,67645dac865835c212a86635,67aca2a5ef17740af213bb78,67ac94cc580e0fd8d3bb8a3c,27411,0
528,33,,,,NA,92,Graduated College,236089,1739367336978,1739367100889,male,direct,,1,English,,67645dac865835c212a86635,67aca2a5ef17740af213bb78,67ac94cc580e0fd8d3bb8a3c,10870,0
529,35,,,,53,NA,Higher degree,521470,1739367342210,1739366820740,female,indirect,,2,english,,5f691e3b76e2ce104196dec7,67aca19c3b5fba89f643214b,67ac94cc580e0fd8d3bb8a3c,19675,0
529,35,,,,NA,71,Higher degree,521470,1739367342210,1739366820740,female,indirect,,2,english,,5f691e3b76e2ce104196dec7,67aca19c3b5fba89f643214b,67ac94cc580e0fd8d3bb8a3c,27541,0
530,39,,,This was a fun study!,10,NA,Higher degree,139060,1739367342398,1739367203338,female,direct,,1,English,,56fc607d490b8200102f16fa,67aca31ab9d9821f8aaa5640,67ac94cc580e0fd8d3bb8a3c,12284,0
530,39,,,This was a fun study!,NA,55,Higher degree,139060,1739367342398,1739367203338,female,direct,,1,English,,56fc607d490b8200102f16fa,67aca31ab9d9821f8aaa5640,67ac94cc580e0fd8d3bb8a3c,8466,0
531,26,,,,50,NA,Graduated College,324035,1739367365254,1739367041219,male,indirect,,2,"English, Twi, Deutsch",,65396cedfbe9c14983a8f6d7,67aca26de8582029e87e8106,67ac94cc580e0fd8d3bb8a3c,30674,0
531,26,,,,NA,75,Graduated College,324035,1739367365254,1739367041219,male,indirect,,2,"English, Twi, Deutsch",,65396cedfbe9c14983a8f6d7,67aca26de8582029e87e8106,67ac94cc580e0fd8d3bb8a3c,25201,0
532,32,,,,1,NA,Graduated College,310024,1739367386837,1739367076813,male,direct,,1,English,,64fb1bd815894a614a87fb12,67aca271f95cf496d424669b,67ac94cc580e0fd8d3bb8a3c,19473,0
532,32,,,,NA,75,Graduated College,310024,1739367386837,1739367076813,male,direct,,1,English,,64fb1bd815894a614a87fb12,67aca271f95cf496d424669b,67ac94cc580e0fd8d3bb8a3c,13050,0
533,56,,,,10,NA,Graduated High-school,180459,1739367398903,1739367218444,female,direct,,1,english,,63d4e9cea745cc8b7406f454,67aca312ccdf19e55618cf15,67ac94cc580e0fd8d3bb8a3c,14107,0
533,56,,,,NA,60,Graduated High-school,180459,1739367398903,1739367218444,female,direct,,1,english,,63d4e9cea745cc8b7406f454,67aca312ccdf19e55618cf15,67ac94cc580e0fd8d3bb8a3c,10102,0
534,44,,,,25,NA,Higher degree,147507,1739367419064,1739367271557,female,direct,,1,English,,677c0b8f69cb71e4bec7b7b7,67aca35bccdf19e55618cf23,67ac94cc580e0fd8d3bb8a3c,9451,0
534,44,,,,NA,48,Higher degree,147507,1739367419064,1739367271557,female,direct,,1,English,,677c0b8f69cb71e4bec7b7b7,67aca35bccdf19e55618cf23,67ac94cc580e0fd8d3bb8a3c,6965,0
535,37,,,,5,NA,Graduated College,113077,1739367419660,1739367306583,female,indirect,,2,English,,669fb4da13e3e7f62adf971f,67aca38167e9b88e723679c5,67ac94cc580e0fd8d3bb8a3c,9637,0
535,37,,,,NA,50,Graduated College,113077,1739367419660,1739367306583,female,indirect,,2,English,,669fb4da13e3e7f62adf971f,67aca38167e9b88e723679c5,67ac94cc580e0fd8d3bb8a3c,6050,0
536,34,,,,66,NA,Graduated College,239330,1739367451631,1739367212301,male,direct,,1,English,,5d3869444a0f0500198dc192,67aca2653e0baf4356ebeeef,67ac94cc580e0fd8d3bb8a3c,16323,0
536,34,,,,NA,99,Graduated College,239330,1739367451631,1739367212301,male,direct,,1,English,,5d3869444a0f0500198dc192,67aca2653e0baf4356ebeeef,67ac94cc580e0fd8d3bb8a3c,8249,0
537,20,,,,50,NA,Graduated College,547291,1739367458068,1739366910777,female,indirect,,2,English Language,,6670687c2a93686aaa3ea236,67aca1e8cedd997dbbe11677,67ac94cc580e0fd8d3bb8a3c,15602,0
537,20,,,,NA,70,Graduated College,547291,1739367458068,1739366910777,female,indirect,,2,English Language,,6670687c2a93686aaa3ea236,67aca1e8cedd997dbbe11677,67ac94cc580e0fd8d3bb8a3c,10781,0
538,20,,,,72,NA,Graduated College,159942,1739367469294,1739367309352,female,direct,,1,English ,,66b4c3ee501ddfac116d3f7e,67aca3828779af14d6a2df9e,67ac94cc580e0fd8d3bb8a3c,4982,0
538,20,,,,NA,95,Graduated College,159942,1739367469294,1739367309352,female,direct,,1,English ,,66b4c3ee501ddfac116d3f7e,67aca3828779af14d6a2df9e,67ac94cc580e0fd8d3bb8a3c,5638,0
539,44,,,,25,NA,Higher degree,43288,1739367486973,1739367443685,female,indirect,,2,English,,677c0b8f69cb71e4bec7b7b7,67aca35bccdf19e55618cf23,67ac94cc580e0fd8d3bb8a3c,4773,0
539,44,,,,NA,50,Higher degree,43288,1739367486973,1739367443685,female,indirect,,2,English,,677c0b8f69cb71e4bec7b7b7,67aca35bccdf19e55618cf23,67ac94cc580e0fd8d3bb8a3c,7280,0
540,23,,,N/A,90,NA,Higher degree,368098,1739367488124,1739367120026,female,indirect,,2,English,,5fa48feaddfbd812de13f3bb,67aca2a71f2b0b79416bdaaf,67ac94cc580e0fd8d3bb8a3c,17991,0
540,23,,,N/A,NA,50,Higher degree,368098,1739367488124,1739367120026,female,indirect,,2,English,,5fa48feaddfbd812de13f3bb,67aca2a71f2b0b79416bdaaf,67ac94cc580e0fd8d3bb8a3c,11912,0
541,30,,,No Further comments.,30,NA,Graduated College,684199,1739367358455,1739366674256,male,direct,,1,English,,6683a217cd77e4dd4c506f6c,67aca18115612be24c2be6c3,67ac94cc580e0fd8d3bb8a3c,70836,0
541,30,,,No Further comments.,NA,100,Graduated College,684199,1739367358455,1739366674256,male,direct,,1,English,,6683a217cd77e4dd4c506f6c,67aca18115612be24c2be6c3,67ac94cc580e0fd8d3bb8a3c,14645,0
542,27,,,,40,NA,Graduated College,100874,1739367535974,1739367435100,male,direct,,1,English,,60a3ac51b06fa9eb29a105bc,67aca3fef72bc1f4a273157a,67ac94cc580e0fd8d3bb8a3c,10528,0
542,27,,,,NA,70,Graduated College,100874,1739367535974,1739367435100,male,direct,,1,English,,60a3ac51b06fa9eb29a105bc,67aca3fef72bc1f4a273157a,67ac94cc580e0fd8d3bb8a3c,6150,0
543,20,,,,50,NA,Higher degree,101771,1739367546923,1739367445152,female,direct,,1,English,,676aaa570d036eee78a2abcc,67aca3fddeb414668e1fa38c,67ac94cc580e0fd8d3bb8a3c,9231,0
543,20,,,,NA,100,Higher degree,101771,1739367546923,1739367445152,female,direct,,1,English,,676aaa570d036eee78a2abcc,67aca3fddeb414668e1fa38c,67ac94cc580e0fd8d3bb8a3c,6276,0
544,39,,,,61,NA,Graduated High-school,167849,1739367548648,1739367380799,female,direct,,1,English,,5f46c67a25a21808e955969a,67aca3d0cad3828ac7a0083f,67ac94cc580e0fd8d3bb8a3c,12368,0
544,39,,,,NA,86,Graduated High-school,167849,1739367548648,1739367380799,female,direct,,1,English,,5f46c67a25a21808e955969a,67aca3d0cad3828ac7a0083f,67ac94cc580e0fd8d3bb8a3c,10336,0
545,45,,,No comment,7,NA,Higher degree,365782,1739367561256,1739367195474,male,direct,,1,English,,6773d7cc871ac6f687bd7758,67aca30d9012f2eb509b87e3,67ac94cc580e0fd8d3bb8a3c,18608,0
545,45,,,No comment,NA,100,Higher degree,365782,1739367561256,1739367195474,male,direct,,1,English,,6773d7cc871ac6f687bd7758,67aca30d9012f2eb509b87e3,67ac94cc580e0fd8d3bb8a3c,11959,0
546,57,,,,2,NA,Higher degree,139110,1739367564921,1739367425811,female,indirect,,2,English,,59fc8a30087f2e0001ead66d,67aca3f6d66897bef5e325b5,67ac94cc580e0fd8d3bb8a3c,9380,0
546,57,,,,NA,100,Higher degree,139110,1739367564921,1739367425811,female,indirect,,2,English,,59fc8a30087f2e0001ead66d,67aca3f6d66897bef5e325b5,67ac94cc580e0fd8d3bb8a3c,10634,0
548,27,,,Nil,96,NA,Higher degree,253724,1739367593310,1739367339586,male,direct,,1,Hausa,,6796a57996ad2f5398d6af0b,67aca313470bbfc12b4ff865,67ac94cc580e0fd8d3bb8a3c,18817,0
548,27,,,Nil,NA,100,Higher degree,253724,1739367593310,1739367339586,male,direct,,1,Hausa,,6796a57996ad2f5398d6af0b,67aca313470bbfc12b4ff865,67ac94cc580e0fd8d3bb8a3c,13089,0
549,18,,,,30,NA,Graduated High-school,88261,1739367606933,1739367518672,male,indirect,,2,English,,6776db5ec2686c027926581e,67aca459587abcbcb23cd2d6,67ac94cc580e0fd8d3bb8a3c,12019,0
549,18,,,,NA,69,Graduated High-school,88261,1739367606933,1739367518672,male,indirect,,2,English,,6776db5ec2686c027926581e,67aca459587abcbcb23cd2d6,67ac94cc580e0fd8d3bb8a3c,4274,0
550,39,,,,40,NA,Higher degree,269807,1739367626968,1739367357161,female,indirect,,2,english,,5adda6e5dee8590001b03397,67aca328f95cf496d42466bf,67ac94cc580e0fd8d3bb8a3c,26552,0
550,39,,,,NA,70,Higher degree,269807,1739367626968,1739367357161,female,indirect,,2,english,,5adda6e5dee8590001b03397,67aca328f95cf496d42466bf,67ac94cc580e0fd8d3bb8a3c,9961,0
551,28,,,,18,NA,Graduated High-school,123814,1739367619837,1739367496023,female,indirect,,2,English,,676b1de2c7e0e0fed8203575,67aca2f32471c5c87a257a36,67ac94cc580e0fd8d3bb8a3c,15579,0
551,28,,,,NA,39,Graduated High-school,123814,1739367619837,1739367496023,female,indirect,,2,English,,676b1de2c7e0e0fed8203575,67aca2f32471c5c87a257a36,67ac94cc580e0fd8d3bb8a3c,5443,0
552,25,,,the survey was good,21,NA,Graduated College,654510,1739367638444,1739366983934,male,indirect,,2,English,,675c554e2c544f458ceac523,67aca21ec35092881c6ad995,67ac94cc580e0fd8d3bb8a3c,131844,0
552,25,,,the survey was good,NA,96,Graduated College,654510,1739367638444,1739366983934,male,indirect,,2,English,,675c554e2c544f458ceac523,67aca21ec35092881c6ad995,67ac94cc580e0fd8d3bb8a3c,45315,0
553,25,,,Interesting study ,100,NA,Graduated College,587554,1739367649101,1739367061547,female,indirect,,2,English ,,678b85970a339d381d0d2ac3,67aca22307591e6ade5a7334,67ac94cc580e0fd8d3bb8a3c,21760,0
553,25,,,Interesting study ,NA,50,Graduated College,587554,1739367649101,1739367061547,female,indirect,,2,English ,,678b85970a339d381d0d2ac3,67aca22307591e6ade5a7334,67ac94cc580e0fd8d3bb8a3c,15538,0
554,26,,,,2,NA,Higher degree,621647,1739367680353,1739367058706,male,direct,,1,English,,6730f804fa4635ef9ba8c46c,67aca1d6c2cd9b3511faa2f8,67ac94cc580e0fd8d3bb8a3c,12984,0
554,26,,,,NA,97,Higher degree,621647,1739367680353,1739367058706,male,direct,,1,English,,6730f804fa4635ef9ba8c46c,67aca1d6c2cd9b3511faa2f8,67ac94cc580e0fd8d3bb8a3c,3944,0
555,23,,,,88,NA,Graduated College,130271,1739367684340,1739367554069,female,direct,,1,"Italian, English",,670ac6e6e25c5aba90375a21,67aca47ad2ecf7812b07060a,67ac94cc580e0fd8d3bb8a3c,8732,0
555,23,,,,NA,95,Graduated College,130271,1739367684340,1739367554069,female,direct,,1,"Italian, English",,670ac6e6e25c5aba90375a21,67aca47ad2ecf7812b07060a,67ac94cc580e0fd8d3bb8a3c,9867,0
556,26,,,None,82,NA,Graduated College,729422,1739368074519,1739367345097,male,indirect,,2,English,,66d1c79f00313b08b2288470,67aca1bae59c096659432149,67ac94cc580e0fd8d3bb8a3c,6343,0
556,26,,,None,NA,81,Graduated College,729422,1739368074519,1739367345097,male,indirect,,2,English,,66d1c79f00313b08b2288470,67aca1bae59c096659432149,67ac94cc580e0fd8d3bb8a3c,8359,0
557,39,,,,60,NA,Higher degree,297368,1739367703910,1739367406542,female,direct,,1,English,,60719da557d8241609b26e83,67aca258af85d79b474981e3,67ac94cc580e0fd8d3bb8a3c,18776,0
557,39,,,,NA,80,Higher degree,297368,1739367703910,1739367406542,female,direct,,1,English,,60719da557d8241609b26e83,67aca258af85d79b474981e3,67ac94cc580e0fd8d3bb8a3c,14018,0
558,36,,,None,15,NA,Graduated College,281473,1739367728647,1739367447174,female,direct,,1,English,,678d3b17093a82fa3fe48ce2,67aca40b2d4f33c85b683c99,67ac94cc580e0fd8d3bb8a3c,35992,0
558,36,,,None,NA,75,Graduated College,281473,1739367728647,1739367447174,female,direct,,1,English,,678d3b17093a82fa3fe48ce2,67aca40b2d4f33c85b683c99,67ac94cc580e0fd8d3bb8a3c,8223,0
559,24,,,no comment,72,NA,Higher degree,313370,1739367730722,1739367417352,male,indirect,,2,English,,678260f2d9d4a104fce5d6a9,67aca3f26e91c0d9eae1170e,67ac94cc580e0fd8d3bb8a3c,15386,0
559,24,,,no comment,NA,60,Higher degree,313370,1739367730722,1739367417352,male,indirect,,2,English,,678260f2d9d4a104fce5d6a9,67aca3f26e91c0d9eae1170e,67ac94cc580e0fd8d3bb8a3c,11959,0
560,28,,,insightful and interesting study.,55,NA,Higher degree,503639,1739367735063,1739367231425,male,direct,,1,English,,6773e8a004359377aa9bcf1e,67aca2f55af91de8ae97a0c3,67ac94cc580e0fd8d3bb8a3c,15792,0
560,28,,,insightful and interesting study.,NA,85,Higher degree,503639,1739367735063,1739367231425,male,direct,,1,English,,6773e8a004359377aa9bcf1e,67aca2f55af91de8ae97a0c3,67ac94cc580e0fd8d3bb8a3c,11832,0
562,24,,,,25,NA,Graduated College,190103,1739367767010,1739367576907,female,indirect,,2,english,,5e1f97bb97308b2cf7b254fb,67aca4051850eac44077e7c2,67ac94cc580e0fd8d3bb8a3c,13432,0
562,24,,,,NA,65,Graduated College,190103,1739367767010,1739367576907,female,indirect,,2,english,,5e1f97bb97308b2cf7b254fb,67aca4051850eac44077e7c2,67ac94cc580e0fd8d3bb8a3c,10677,0
563,32,,,,26,NA,Graduated High-school,209460,1739367784407,1739367574947,female,direct,,1,English,,5da8a7e14dabf000165f8631,67aca481f0645b136db21df2,67ac94cc580e0fd8d3bb8a3c,17363,0
563,32,,,,NA,65,Graduated High-school,209460,1739367784407,1739367574947,female,direct,,1,English,,5da8a7e14dabf000165f8631,67aca481f0645b136db21df2,67ac94cc580e0fd8d3bb8a3c,10624,0
564,25,,,the survey was nice,21,NA,Graduated College,104523,1739367806563,1739367702040,male,indirect,,2,English,,675c554e2c544f458ceac523,67aca21ec35092881c6ad995,67ac94cc580e0fd8d3bb8a3c,10189,0
564,25,,,the survey was nice,NA,97,Graduated College,104523,1739367806563,1739367702040,male,indirect,,2,English,,675c554e2c544f458ceac523,67aca21ec35092881c6ad995,67ac94cc580e0fd8d3bb8a3c,7341,0
565,23,,,none,90,NA,Graduated College,654532,1739367830893,1739367176361,male,indirect,,2,English,,6779b9070368d6272cc2b448,67aca2835277c760baa3cc69,67ac94cc580e0fd8d3bb8a3c,19166,0
565,23,,,none,NA,86,Graduated College,654532,1739367830893,1739367176361,male,indirect,,2,English,,6779b9070368d6272cc2b448,67aca2835277c760baa3cc69,67ac94cc580e0fd8d3bb8a3c,100522,0
566,25,,,None,30,NA,Graduated College,360672,1739367809279,1739367448607,male,direct,,1,,,678fe0722259cef0489dc14a,67aca38dc89b40ca0d26fbe9,67ac94cc580e0fd8d3bb8a3c,30335,0
566,25,,,None,NA,95,Graduated College,360672,1739367809279,1739367448607,male,direct,,1,,,678fe0722259cef0489dc14a,67aca38dc89b40ca0d26fbe9,67ac94cc580e0fd8d3bb8a3c,15742,0
567,36,,,"no further comments, thank you very much though!",25,NA,Higher degree,174790,1739367846404,1739367671614,male,direct,,1,English,,5f9802a1306ea3045e8c0b43,67aca4f4adcbb3fc55c8bfbe,67ac94cc580e0fd8d3bb8a3c,13696,0
567,36,,,"no further comments, thank you very much though!",NA,75,Higher degree,174790,1739367846404,1739367671614,male,direct,,1,English,,5f9802a1306ea3045e8c0b43,67aca4f4adcbb3fc55c8bfbe,67ac94cc580e0fd8d3bb8a3c,8242,0
568,30,,,,11,NA,Higher degree,351330,1739367844964,1739367493634,male,indirect,,2,English,,6731b2a212a760a9375e0943,67aca409d7dc805314b18f55,67ac94cc580e0fd8d3bb8a3c,20691,0
568,30,,,,NA,100,Higher degree,351330,1739367844964,1739367493634,male,indirect,,2,English,,6731b2a212a760a9375e0943,67aca409d7dc805314b18f55,67ac94cc580e0fd8d3bb8a3c,12440,0
569,34,,,,80,NA,Higher degree,163475,1739367863028,1739367699553,male,indirect,,2,English,,676152016665aca384cde31e,67aca4f91850eac44077e7eb,67ac94cc580e0fd8d3bb8a3c,13660,0
569,34,,,,NA,90,Higher degree,163475,1739367863028,1739367699553,male,indirect,,2,English,,676152016665aca384cde31e,67aca4f91850eac44077e7eb,67ac94cc580e0fd8d3bb8a3c,8821,0
570,26,,,None,60,NA,Graduated College,55835,1739368283673,1739368227838,male,direct,,1,English,,66d1c79f00313b08b2288470,67aca1bae59c096659432149,67ac94cc580e0fd8d3bb8a3c,3609,0
570,26,,,None,NA,63,Graduated College,55835,1739368283673,1739368227838,male,direct,,1,English,,66d1c79f00313b08b2288470,67aca1bae59c096659432149,67ac94cc580e0fd8d3bb8a3c,2262,0
571,26,,,I am glade to take part in this study,48,NA,Higher degree,698490,1739367948948,1739367250458,male,direct,,1,English,,676d3ef7769d39d4537e67d4,67aca3262d4f33c85b683c6f,67ac94cc580e0fd8d3bb8a3c,55155,0
571,26,,,I am glade to take part in this study,NA,77,Higher degree,698490,1739367948948,1739367250458,male,direct,,1,English,,676d3ef7769d39d4537e67d4,67aca3262d4f33c85b683c6f,67ac94cc580e0fd8d3bb8a3c,38011,0
572,22,,,,50,NA,Higher degree,381925,1739367949585,1739367567660,male,direct,,1,English,,678549e0a955d734a6ec8293,67aca40a2e0ccf389f7c5a6a,67ac94cc580e0fd8d3bb8a3c,34486,0
572,22,,,,NA,70,Higher degree,381925,1739367949585,1739367567660,male,direct,,1,English,,678549e0a955d734a6ec8293,67aca40a2e0ccf389f7c5a6a,67ac94cc580e0fd8d3bb8a3c,22921,0
573,33,,,,48,NA,Graduated High-school,160051,1739367913157,1739367753106,male,direct,,1,english,,59b6b49259f3df0001e086e5,67aca56d60418950f82e3209,67ac94cc580e0fd8d3bb8a3c,8972,0
573,33,,,,NA,62,Graduated High-school,160051,1739367913157,1739367753106,male,direct,,1,english,,59b6b49259f3df0001e086e5,67aca56d60418950f82e3209,67ac94cc580e0fd8d3bb8a3c,9649,0
574,39,,,N/A,21,NA,Higher degree,173143,1739368022206,1739367849063,male,direct,,1,English,,652e897fbe20e8e18d720fc2,67aca59593dd4b0a16db55bd,67ac94cc580e0fd8d3bb8a3c,12634,0
574,39,,,N/A,NA,50,Higher degree,173143,1739368022206,1739367849063,male,direct,,1,English,,652e897fbe20e8e18d720fc2,67aca59593dd4b0a16db55bd,67ac94cc580e0fd8d3bb8a3c,13213,0
575,48,,,,71,NA,Graduated College,341163,1739368071290,1739367730127,female,indirect,,2,English,,5a0b42e4fe645f0001e9f480,67aca4ff4c6ced7455581954,67ac94cc580e0fd8d3bb8a3c,12447,0
575,48,,,,NA,91,Graduated College,341163,1739368071290,1739367730127,female,indirect,,2,English,,5a0b42e4fe645f0001e9f480,67aca4ff4c6ced7455581954,67ac94cc580e0fd8d3bb8a3c,8357,0
576,27,,,No comment,86,NA,Higher degree,710660,1739368027755,1739367317095,female,indirect,,2,English,,6727707631398e4a8a1ad02a,67aca38eae2bcfe21fb9ce29,67ac94cc580e0fd8d3bb8a3c,45290,0
576,27,,,No comment,NA,51,Higher degree,710660,1739368027755,1739367317095,female,indirect,,2,English,,6727707631398e4a8a1ad02a,67aca38eae2bcfe21fb9ce29,67ac94cc580e0fd8d3bb8a3c,12872,0
577,31,,,No comments,1,NA,Graduated College,131925,1739368045776,1739367913851,female,indirect,,2,English,,67909268d8075811e91b54cc,67aca49f94fd1b534a74c3f5,67ac94cc580e0fd8d3bb8a3c,11206,0
577,31,,,No comments,NA,3,Graduated College,131925,1739368045776,1739367913851,female,indirect,,2,English,,67909268d8075811e91b54cc,67aca49f94fd1b534a74c3f5,67ac94cc580e0fd8d3bb8a3c,4730,0
578,25,,,i enjoyed the study,3,NA,Higher degree,954913,1739368063041,1739367108128,female,direct,,1,English,,6637d382d385b60079e010e9,67aca22700385a83c408acb0,67ac94cc580e0fd8d3bb8a3c,47499,0
578,25,,,i enjoyed the study,NA,69,Higher degree,954913,1739368063041,1739367108128,female,direct,,1,English,,6637d382d385b60079e010e9,67aca22700385a83c408acb0,67ac94cc580e0fd8d3bb8a3c,27231,0
579,37,,,none,6,NA,Graduated College,405505,1739368063367,1739367657863,male,indirect,,2,english,,65e9fbe46ad3a93ae116ca4b,67aca4e13fb711f7bf037ec2,67ac94cc580e0fd8d3bb8a3c,97454,0
579,37,,,none,NA,86,Graduated College,405505,1739368063367,1739367657863,male,indirect,,2,english,,65e9fbe46ad3a93ae116ca4b,67aca4e13fb711f7bf037ec2,67ac94cc580e0fd8d3bb8a3c,58566,0
580,39,,,,91,NA,,474804,1739368071980,1739367597176,female,indirect,,2,english,,67670e7aaa0ab40b2a43d80e,67aca49b5e65b06bcdea3ddf,67ac94cc580e0fd8d3bb8a3c,99312,0
580,39,,,,NA,100,,474804,1739368071980,1739367597176,female,indirect,,2,english,,67670e7aaa0ab40b2a43d80e,67aca49b5e65b06bcdea3ddf,67ac94cc580e0fd8d3bb8a3c,13122,0
581,26,,,Was cool,12,NA,Graduated College,553003,1739368091837,1739367538834,male,direct,,1,English,,67461ea36218461771358e64,67aca3ca83209df31d98c427,67ac94cc580e0fd8d3bb8a3c,32745,0
581,26,,,Was cool,NA,100,Graduated College,553003,1739368091837,1739367538834,male,direct,,1,English,,67461ea36218461771358e64,67aca3ca83209df31d98c427,67ac94cc580e0fd8d3bb8a3c,20739,0
582,34,,,good study,32,NA,Higher degree,551509,1739368263283,1739367711774,male,indirect,,2,english,,60c2b160526d0ae3b07ca006,67aca43c69f43115d61a75c3,67ac94cc580e0fd8d3bb8a3c,16248,0
582,34,,,good study,NA,57,Higher degree,551509,1739368263283,1739367711774,male,indirect,,2,english,,60c2b160526d0ae3b07ca006,67aca43c69f43115d61a75c3,67ac94cc580e0fd8d3bb8a3c,3944,0
584,34,,,,89,NA,Higher degree,715729,1739368330743,1739367615014,male,indirect,,2,English and Filipino ,,6737b958a49ff94090a82e70,67aca422827ac07127f8227a,67ac94cc580e0fd8d3bb8a3c,39913,0
584,34,,,,NA,99,Higher degree,715729,1739368330743,1739367615014,male,indirect,,2,English and Filipino ,,6737b958a49ff94090a82e70,67aca422827ac07127f8227a,67ac94cc580e0fd8d3bb8a3c,25338,0
585,26,,,,27,NA,Graduated College,258164,1739368389314,1739368131150,male,direct,,1,English,,674ccbe164aacf09eb094385,67aca57d5007f62555db4213,67ac94cc580e0fd8d3bb8a3c,4803,0
585,26,,,,NA,72,Graduated College,258164,1739368389314,1739368131150,male,direct,,1,English,,674ccbe164aacf09eb094385,67aca57d5007f62555db4213,67ac94cc580e0fd8d3bb8a3c,3370,0
586,53,,,since high volume of Xeliherb is associated with the presence of Ralocrop I will cultivated both.,85,NA,Graduated College,385418,1739368407746,1739368022328,female,direct,,1,English,,659963905dffc3c84fb51a3e,67aca6400b885400037c5a8a,67ac94cc580e0fd8d3bb8a3c,15686,0
586,53,,,since high volume of Xeliherb is associated with the presence of Ralocrop I will cultivated both.,NA,87,Graduated College,385418,1739368407746,1739368022328,female,direct,,1,English,,659963905dffc3c84fb51a3e,67aca6400b885400037c5a8a,67ac94cc580e0fd8d3bb8a3c,16624,0
587,53,,,,17,NA,Graduated College,1139580,1739368409904,1739367270324,female,indirect,,2,Englsih,,677de1ca16b97b08b8d61c1d,67aca362e59c09665943218a,67ac94cc580e0fd8d3bb8a3c,17614,0
587,53,,,,NA,53,Graduated College,1139580,1739368409904,1739367270324,female,indirect,,2,Englsih,,677de1ca16b97b08b8d61c1d,67aca362e59c09665943218a,67ac94cc580e0fd8d3bb8a3c,17206,0
588,26,,,good survey,30,NA,Higher degree,150029,1739368542622,1739368392593,male,direct,,1,english,,66c104950c58856864c8827d,67aca47611cf8e94d1b9ce26,67ac94cc580e0fd8d3bb8a3c,2736,0
588,26,,,good survey,NA,81,Higher degree,150029,1739368542622,1739368392593,male,direct,,1,english,,66c104950c58856864c8827d,67aca47611cf8e94d1b9ce26,67ac94cc580e0fd8d3bb8a3c,5008,0
589,25,,,i will encourage the cultivation,100,NA,Graduated College,1089182,1739368677144,1739367587962,female,direct,,1,english,,673f18bb08e7ff5ef549e488,67aca21a236965a0c56a9508,67ac94cc580e0fd8d3bb8a3c,21493,0
589,25,,,i will encourage the cultivation,NA,100,Graduated College,1089182,1739368677144,1739367587962,female,direct,,1,english,,673f18bb08e7ff5ef549e488,67aca21a236965a0c56a9508,67ac94cc580e0fd8d3bb8a3c,20962,0
590,57,,,very good study,30,NA,Higher degree,106911,1739368701078,1739368594167,female,indirect,,2,english,,6510be6d0ebef3714fbfa677,67aca4975e0256edc4c461f7,67ac94cc580e0fd8d3bb8a3c,2552,0
590,57,,,very good study,NA,67,Higher degree,106911,1739368701078,1739368594167,female,indirect,,2,english,,6510be6d0ebef3714fbfa677,67aca4975e0256edc4c461f7,67ac94cc580e0fd8d3bb8a3c,2161,0
591,34,,,good study,32,NA,Higher degree,290466,1739368899965,1739368609499,male,indirect,,2,english,,6711661fb7e391e9a49153fd,67aca422d3c46b95e6774199,67ac94cc580e0fd8d3bb8a3c,102985,0
591,34,,,good study,NA,47,Higher degree,290466,1739368899965,1739368609499,male,indirect,,2,english,,6711661fb7e391e9a49153fd,67aca422d3c46b95e6774199,67ac94cc580e0fd8d3bb8a3c,4361,0
592,23,,,,29,NA,Higher degree,421605,1739369047574,1739368625969,male,direct,,1,english,,650f31c40fc72d4ffb4d4c03,67aca4aab25df158585d7255,67ac94cc580e0fd8d3bb8a3c,2247,0
592,23,,,,NA,66,Higher degree,421605,1739369047574,1739368625969,male,direct,,1,english,,650f31c40fc72d4ffb4d4c03,67aca4aab25df158585d7255,67ac94cc580e0fd8d3bb8a3c,3768,0
593,39,,,,10,NA,Graduated College,256465,1739369422227,1739369165762,female,direct,,1,English,,5d88be0938f387001561951e,67aca98836d391a436f80943,67ac94cc580e0fd8d3bb8a3c,43090,0
593,39,,,,NA,90,Graduated College,256465,1739369422227,1739369165762,female,direct,,1,English,,5d88be0938f387001561951e,67aca98836d391a436f80943,67ac94cc580e0fd8d3bb8a3c,8455,0
594,29,,,,80,NA,Higher degree,61422,1739369116238,1739369054816,male,indirect,,2,English,,671cb35fada6d945b91ed1e3,67aca6e67dfe93baea6fc7ee,67ac94cc580e0fd8d3bb8a3c,2776,0
594,29,,,,NA,82,Higher degree,61422,1739369116238,1739369054816,male,indirect,,2,English,,671cb35fada6d945b91ed1e3,67aca6e67dfe93baea6fc7ee,67ac94cc580e0fd8d3bb8a3c,3764,0
595,27,,,"This was so amazing, I love the graphics and story mode",38,NA,Graduated College,254799,1739369116279,1739368861480,male,indirect,,2,English,,6734d627b2c7c6f84827f006,67aca99a77bbbf077fdad692,67ac94cc580e0fd8d3bb8a3c,24478,0
595,27,,,"This was so amazing, I love the graphics and story mode",NA,71,Graduated College,254799,1739369116279,1739368861480,male,indirect,,2,English,,6734d627b2c7c6f84827f006,67aca99a77bbbf077fdad692,67ac94cc580e0fd8d3bb8a3c,8511,0
596,43,,,,6,NA,Higher degree,655437,1739369354633,1739368699196,male,direct,,1,"English, Irish ",,5eee6d18290a5e30822f4b35,67aca37b1a5a6b4d74afd71b,67ac94cc580e0fd8d3bb8a3c,23509,0
596,43,,,,NA,100,Higher degree,655437,1739369354633,1739368699196,male,direct,,1,"English, Irish ",,5eee6d18290a5e30822f4b35,67aca37b1a5a6b4d74afd71b,67ac94cc580e0fd8d3bb8a3c,6540,0
597,20,,,,85,NA,Graduated High-school,1488297,1739369494675,1739368006378,female,direct,,1,,,66b7ed5bf499f89ed0a9c03d,67aca411354eb70809af43de,67ac94cc580e0fd8d3bb8a3c,24475,0
597,20,,,,NA,100,Graduated High-school,1488297,1739369494675,1739368006378,female,direct,,1,,,66b7ed5bf499f89ed0a9c03d,67aca411354eb70809af43de,67ac94cc580e0fd8d3bb8a3c,16256,0
487,58,,,,1,NA,Graduated High-school,215624,1739359520699,1739359305075,female,indirect,,2,"Afrikaan, English",,669d3389577384258df175d7,67ac838138c433b564dba485,67ac806e787639613811c4a5,16933,0
487,58,,,,NA,2,Graduated High-school,215624,1739359520699,1739359305075,female,indirect,,2,"Afrikaan, English",,669d3389577384258df175d7,67ac838138c433b564dba485,67ac806e787639613811c4a5,17564,0
490,21,,,"I liked the study
",79,NA,Graduated College,567214,1739359540102,1739358972888,female,indirect,,2,English,,66791595b4b5c44cfa3a900e,67ac82755d861859f2d5b9b1,67ac806e787639613811c4a5,16333,0
490,21,,,"I liked the study
",NA,52,Graduated College,567214,1739359540102,1739358972888,female,indirect,,2,English,,66791595b4b5c44cfa3a900e,67ac82755d861859f2d5b9b1,67ac806e787639613811c4a5,12215,0