submission_id,age,attentionCheck,attentionCheckResult,comments,decision1,decision2,education,experiment_duration,experiment_end_time,experiment_start_time,gender,informationSource,itemName,itemNr,languages,probs,prolific_pid,prolific_session_id,prolific_study_id,responseTime,trialNR
598,55,,,thankyou,51,NA,Graduated High-school,203719,1740603197370,1740602993651,male,direct,,1,english,,63ee6ca92186ac65c4437d62,67bf7e6d51bcbcdcc4f9ab51,67bf77585adf79c5edd65b04,20510,0
598,55,,,thankyou,NA,89,Graduated High-school,203719,1740603197370,1740602993651,male,direct,,1,english,,63ee6ca92186ac65c4437d62,67bf7e6d51bcbcdcc4f9ab51,67bf77585adf79c5edd65b04,10736,0
605,45,,,The study was quite interesting to participate in,77,NA,Graduated College,334115,1740603510610,1740603176495,female,direct,,1,English,,672240fa735fc09f3c8d4581,67bf7ec895eb8c9707d2d1df,67bf77585adf79c5edd65b04,26899,0
605,45,,,The study was quite interesting to participate in,NA,75,Graduated College,334115,1740603510610,1740603176495,female,direct,,1,English,,672240fa735fc09f3c8d4581,67bf7ec895eb8c9707d2d1df,67bf77585adf79c5edd65b04,18157,0
599,22,,,No comments,100,NA,Graduated College,466810,1740603196813,1740602730003,male,direct,,1,English,,67826c0cd5858c9d420da7ff,67bf7d2fd56dca04c24fa5b9,67bf77585adf79c5edd65b04,33397,0
599,22,,,No comments,NA,100,Graduated College,466810,1740603196813,1740602730003,male,direct,,1,English,,67826c0cd5858c9d420da7ff,67bf7d2fd56dca04c24fa5b9,67bf77585adf79c5edd65b04,25729,0
602,24,,,,47,NA,,448819,1740603334867,1740602886048,female,direct,,1,,,672e182f4023d603c6df837b,67bf7dd39e6482573c8618dd,67bf77585adf79c5edd65b04,26108,0
602,24,,,,NA,80,,448819,1740603334867,1740602886048,female,direct,,1,,,672e182f4023d603c6df837b,67bf7dd39e6482573c8618dd,67bf77585adf79c5edd65b04,32036,0
600,23,,,none,95,NA,Higher degree,278628,1740603239411,1740602960783,female,direct,,1,English,,673a5627fc7b7863f7d57f0b,67bf7e381562b07c23d9a2b5,67bf77585adf79c5edd65b04,17266,0
600,23,,,none,NA,89,Higher degree,278628,1740603239411,1740602960783,female,direct,,1,English,,673a5627fc7b7863f7d57f0b,67bf7e381562b07c23d9a2b5,67bf77585adf79c5edd65b04,10384,0
601,24,,,,75,NA,Graduated College,445762,1740603304204,1740602858442,female,direct,,1,Englsh,,66704038ed9c2e159e7121a3,67bf7dd6eb8349776d54d400,67bf77585adf79c5edd65b04,16338,0
601,24,,,,NA,89,Graduated College,445762,1740603304204,1740602858442,female,direct,,1,Englsh,,66704038ed9c2e159e7121a3,67bf7dd6eb8349776d54d400,67bf77585adf79c5edd65b04,1973,0
603,28,,,,30,NA,Higher degree,177334,1740603367697,1740603190363,male,direct,,1,english,,678a690b6930408aa1ee5ea5,67bf7f250ab4b8316749339a,67bf77585adf79c5edd65b04,34105,0
603,28,,,,NA,80,Higher degree,177334,1740603367697,1740603190363,male,direct,,1,english,,678a690b6930408aa1ee5ea5,67bf7f250ab4b8316749339a,67bf77585adf79c5edd65b04,6726,0
604,27,,,What a fun survey! The images really helped spice up the imagination!,15,NA,Graduated College,220774,1740603401562,1740603180788,male,direct,,1,"English, Portuguese",,610d1cf3c7b4411f1643e501,67bf7f26f6ecd2a75ea75073,67bf77585adf79c5edd65b04,13142,0
604,27,,,What a fun survey! The images really helped spice up the imagination!,NA,100,Graduated College,220774,1740603401562,1740603180788,male,direct,,1,"English, Portuguese",,610d1cf3c7b4411f1643e501,67bf7f26f6ecd2a75ea75073,67bf77585adf79c5edd65b04,8459,0
606,77,,,None,10,NA,Higher degree,190082,1740603511442,1740603321360,male,direct,,1,"English, Irish",,5f392fae9168cc472f0468f6,67bf7f89e0c56a1212a751ed,67bf77585adf79c5edd65b04,9288,0
606,77,,,None,NA,50,Higher degree,190082,1740603511442,1740603321360,male,direct,,1,"English, Irish",,5f392fae9168cc472f0468f6,67bf7f89e0c56a1212a751ed,67bf77585adf79c5edd65b04,6112,0
607,54,,,the study was amazing,73,NA,Higher degree,392413,1740603541930,1740603149517,male,direct,,1,english,,675e8e92f5b7ffad57a265b1,67bf7ef95c0deb74a467d59a,67bf77585adf79c5edd65b04,22155,0
607,54,,,the study was amazing,NA,82,Higher degree,392413,1740603541930,1740603149517,male,direct,,1,english,,675e8e92f5b7ffad57a265b1,67bf7ef95c0deb74a467d59a,67bf77585adf79c5edd65b04,1952,0
608,34,,,"Nice study, very engaging",37,NA,Graduated College,498183,1740603651050,1740603152867,male,direct,,1,English,,676d220cd6e7101ccba18ba5,67bf7ef75ff7c1a036a3f6b6,67bf77585adf79c5edd65b04,81986,0
608,34,,,"Nice study, very engaging",NA,100,Graduated College,498183,1740603651050,1740603152867,male,direct,,1,English,,676d220cd6e7101ccba18ba5,67bf7ef75ff7c1a036a3f6b6,67bf77585adf79c5edd65b04,24720,0
609,36,,,No further comments,48,NA,Graduated College,227867,1740603740930,1740603513063,female,direct,,1,ENGLISH,,5f3287b83428cb05746e2214,67bf7fbfab39bc59128c854c,67bf77585adf79c5edd65b04,13688,0
609,36,,,No further comments,NA,99,Graduated College,227867,1740603740930,1740603513063,female,direct,,1,ENGLISH,,5f3287b83428cb05746e2214,67bf7fbfab39bc59128c854c,67bf77585adf79c5edd65b04,4360,0
610,61,,,,50,NA,Higher degree,210375,1740603757197,1740603546822,male,direct,,1,English ,,66097284b44bdd99ae430bf1,67bf808eeb8ca3dcc2a1ca3a,67bf77585adf79c5edd65b04,23836,0
610,61,,,,NA,85,Higher degree,210375,1740603757197,1740603546822,male,direct,,1,English ,,66097284b44bdd99ae430bf1,67bf808eeb8ca3dcc2a1ca3a,67bf77585adf79c5edd65b04,19077,0
611,61,,,,46,NA,Higher degree,87122,1740603864853,1740603777731,male,direct,,1,English ,,66097284b44bdd99ae430bf1,67bf808eeb8ca3dcc2a1ca3a,67bf77585adf79c5edd65b04,13183,0
611,61,,,,NA,77,Higher degree,87122,1740603864853,1740603777731,male,direct,,1,English ,,66097284b44bdd99ae430bf1,67bf808eeb8ca3dcc2a1ca3a,67bf77585adf79c5edd65b04,6905,0
612,30,,,,47,NA,Higher degree,555822,1740603990750,1740603434928,male,direct,,1,english,,675c21cd6cd5906dcb4d5a4b,67bf8016ec7c14bb789af535,67bf77585adf79c5edd65b04,31004,0
612,30,,,,NA,35,Higher degree,555822,1740603990750,1740603434928,male,direct,,1,english,,675c21cd6cd5906dcb4d5a4b,67bf8016ec7c14bb789af535,67bf77585adf79c5edd65b04,12538,0
613,22,,,,40,NA,Higher degree,136533,1740604021262,1740603884729,female,direct,,1,,,6765df9e4567f492b1e85adc,67bf81e6579388bde97c8ac8,67bf77585adf79c5edd65b04,15914,0
613,22,,,,NA,84,Higher degree,136533,1740604021262,1740603884729,female,direct,,1,,,6765df9e4567f492b1e85adc,67bf81e6579388bde97c8ac8,67bf77585adf79c5edd65b04,10900,0
614,37,,,,60,NA,Higher degree,707128,1740329313087,1740328605959,female,direct,,1,,,6711703a59bd1420f0fc8bf7,67bf7efb794741be6a2db640,67bf77585adf79c5edd65b04,57164,0
614,37,,,,NA,69,Higher degree,707128,1740329313087,1740328605959,female,direct,,1,,,6711703a59bd1420f0fc8bf7,67bf7efb794741be6a2db640,67bf77585adf79c5edd65b04,17643,0
615,22,,,none,36,NA,Graduated College,46191,1740604117373,1740604071182,female,direct,,1,english,,6765df9e4567f492b1e85adc,67bf81e6579388bde97c8ac8,67bf77585adf79c5edd65b04,3897,0
615,22,,,none,NA,79,Graduated College,46191,1740604117373,1740604071182,female,direct,,1,english,,6765df9e4567f492b1e85adc,67bf81e6579388bde97c8ac8,67bf77585adf79c5edd65b04,3054,0
616,44,,,,50,NA,Graduated College,122379,1740604701865,1740604579486,male,direct,,1,english,,5d756404ad0dbc00010f914d,67bf849b8a3dd29fa53c127c,67bf77585adf79c5edd65b04,12193,0
616,44,,,,NA,100,Graduated College,122379,1740604701865,1740604579486,male,direct,,1,english,,5d756404ad0dbc00010f914d,67bf849b8a3dd29fa53c127c,67bf77585adf79c5edd65b04,5906,0
617,39,,,,73,NA,Graduated College,224368,1740604711541,1740604487173,male,direct,,1,English,,582acd90f715190001a48b52,67bf843562f988bf05b9e6f0,67bf77585adf79c5edd65b04,11125,0
617,39,,,,NA,88,Graduated College,224368,1740604711541,1740604487173,male,direct,,1,English,,582acd90f715190001a48b52,67bf843562f988bf05b9e6f0,67bf77585adf79c5edd65b04,8334,0
618,34,,,increase the compensation,18,NA,Graduated College,575308,1740604903391,1740604328083,male,direct,,1,English,,67457c3dad6ff0234d42fdef,67bf82e9a8d45e01a226246a,67bf77585adf79c5edd65b04,41256,0
618,34,,,increase the compensation,NA,74,Graduated College,575308,1740604903391,1740604328083,male,direct,,1,English,,67457c3dad6ff0234d42fdef,67bf82e9a8d45e01a226246a,67bf77585adf79c5edd65b04,24479,0
619,62,,,,81,NA,Graduated High-school,587045,1740605338634,1740604751589,male,direct,,1,no,,669974f158967b74e24aecda,67bf852af4a164152792d5bd,67bf77585adf79c5edd65b04,25998,0
619,62,,,,NA,80,Graduated High-school,587045,1740605338634,1740604751589,male,direct,,1,no,,669974f158967b74e24aecda,67bf852af4a164152792d5bd,67bf77585adf79c5edd65b04,28655,0
