submission_id,age,attentionCheck,attentionCheckResult,comments,decision1,decision2,education,experiment_duration,experiment_end_time,experiment_start_time,gender,informationSource,itemName,itemNr,languages,probs,prolific_pid,prolific_session_id,prolific_study_id,responseTime,trialNR
639,19,,,,40,NA,Graduated High-school,261694,1740610782220,1740610520526,male,indirect,,2,English,,66bf59da77f200a4a75a7b62,67bf9bcd592679e5408558c9,67bf8c566bb3f73a9e82acf8,22061,0
639,19,,,,NA,80,Graduated High-school,261694,1740610782220,1740610520526,male,indirect,,2,English,,66bf59da77f200a4a75a7b62,67bf9bcd592679e5408558c9,67bf8c566bb3f73a9e82acf8,7292,0
620,38,,,,19,NA,Higher degree,224472,1740608031109,1740607806637,female,indirect,,2,English ,,5fae8e8b0722ba03b781d40b,67bf911ce0c56a1212a754ec,67bf8c566bb3f73a9e82acf8,13533,0
620,38,,,,NA,50,Higher degree,224472,1740608031109,1740607806637,female,indirect,,2,English ,,5fae8e8b0722ba03b781d40b,67bf911ce0c56a1212a754ec,67bf8c566bb3f73a9e82acf8,11136,0
621,22,,,,25,NA,Graduated College,114852,1740608113206,1740607998354,female,indirect,,2,english,,6503113d1c0f6b67930dfa8d,67bf91eb09cebda2c07ec276,67bf8c566bb3f73a9e82acf8,11417,0
621,22,,,,NA,100,Graduated College,114852,1740608113206,1740607998354,female,indirect,,2,english,,6503113d1c0f6b67930dfa8d,67bf91eb09cebda2c07ec276,67bf8c566bb3f73a9e82acf8,4633,0
627,56,,,,58,NA,Higher degree,189515,1740608577516,1740608388001,female,indirect,,2,,,6711a475aa84adccba0feaa9,67bf937afad9d8505cc18a79,67bf8c566bb3f73a9e82acf8,17368,0
627,56,,,,NA,84,Higher degree,189515,1740608577516,1740608388001,female,indirect,,2,,,6711a475aa84adccba0feaa9,67bf937afad9d8505cc18a79,67bf8c566bb3f73a9e82acf8,11447,0
628,32,,,,60,NA,Higher degree,307646,1740608584371,1740608276725,male,indirect,,2,English,,632b3639f61612815d100608,67bf9301ea1e10a2e7948895,67bf8c566bb3f73a9e82acf8,41842,0
628,32,,,,NA,95,Higher degree,307646,1740608584371,1740608276725,male,indirect,,2,English,,632b3639f61612815d100608,67bf9301ea1e10a2e7948895,67bf8c566bb3f73a9e82acf8,24264,0
622,33,,,,6,NA,,345210,1740608312475,1740607967265,female,indirect,,2,English,,67667c5a2dde32ea7b0b66c7,67bf91d1c2cc31078348475e,67bf8c566bb3f73a9e82acf8,14266,0
622,33,,,,NA,79,,345210,1740608312475,1740607967265,female,indirect,,2,English,,67667c5a2dde32ea7b0b66c7,67bf91d1c2cc31078348475e,67bf8c566bb3f73a9e82acf8,13367,0
623,49,,,,50,NA,Graduated College,177693,1740608338368,1740608160675,male,indirect,,2,English,,662c0e7a4a4e2b2fc26960f5,67bf9295039646b2889d991d,67bf8c566bb3f73a9e82acf8,28776,0
623,49,,,,NA,85,Graduated College,177693,1740608338368,1740608160675,male,indirect,,2,English,,662c0e7a4a4e2b2fc26960f5,67bf9295039646b2889d991d,67bf8c566bb3f73a9e82acf8,13648,0
624,38,,,,1,NA,Graduated College,149315,1740608390009,1740608240694,male,indirect,,2,English,,66a578b63ff44975cdbc88a8,67bf92eb5e20262207a22114,67bf8c566bb3f73a9e82acf8,15823,0
624,38,,,,NA,100,Graduated College,149315,1740608390009,1740608240694,male,indirect,,2,English,,66a578b63ff44975cdbc88a8,67bf92eb5e20262207a22114,67bf8c566bb3f73a9e82acf8,10305,0
625,18,,,,75,NA,Graduated High-school,127083,1740608464439,1740608337356,male,indirect,,2,English,,6665ff2b27597e219632ec4a,67bf9347cf8d50cc8816b349,67bf8c566bb3f73a9e82acf8,20202,0
625,18,,,,NA,100,Graduated High-school,127083,1740608464439,1740608337356,male,indirect,,2,English,,6665ff2b27597e219632ec4a,67bf9347cf8d50cc8816b349,67bf8c566bb3f73a9e82acf8,4710,0
626,40,,,,26,NA,Higher degree,82532,1740608568046,1740608485514,female,indirect,,2,,,5cea26087afd86001a34a5db,67bf93d3e7e63dc69ccfb4aa,67bf8c566bb3f73a9e82acf8,8928,0
626,40,,,,NA,67,Higher degree,82532,1740608568046,1740608485514,female,indirect,,2,,,5cea26087afd86001a34a5db,67bf93d3e7e63dc69ccfb4aa,67bf8c566bb3f73a9e82acf8,3576,0
629,60,,,,1,NA,Graduated College,171797,1740608893849,1740608722052,male,indirect,,2,English,,645bb86a975c3b3594fd0a4a,67bf94be9b58eb1773b25649,67bf8c566bb3f73a9e82acf8,15428,0
629,60,,,,NA,20,Graduated College,171797,1740608893849,1740608722052,male,indirect,,2,English,,645bb86a975c3b3594fd0a4a,67bf94be9b58eb1773b25649,67bf8c566bb3f73a9e82acf8,19453,0
633,39,,,Thank you for having me. Good luck with your space crops :P,10,NA,Graduated College,183665,1740609420063,1740609236398,male,indirect,,2,English,,66421610459ae675582e0a98,67bf96d266e059450f754547,67bf8c566bb3f73a9e82acf8,17602,0
633,39,,,Thank you for having me. Good luck with your space crops :P,NA,85,Graduated College,183665,1740609420063,1740609236398,male,indirect,,2,English,,66421610459ae675582e0a98,67bf96d266e059450f754547,67bf8c566bb3f73a9e82acf8,19122,0
630,20,,,none,88,NA,Graduated College,871060,1740609143843,1740608272783,male,indirect,,2,English,,6776a104d40aac30b9e49748,67bf92e353df67cbb30ba78a,67bf8c566bb3f73a9e82acf8,20624,0
630,20,,,none,NA,99,Graduated College,871060,1740609143843,1740608272783,male,indirect,,2,English,,6776a104d40aac30b9e49748,67bf92e353df67cbb30ba78a,67bf8c566bb3f73a9e82acf8,43732,0
631,29,,,very interesting study,30,NA,Graduated College,710418,1740609214298,1740608503880,female,indirect,,2,English ,,60b7e1bcfe148de04d17624b,67bf93dac0205ba2c93412a1,67bf8c566bb3f73a9e82acf8,52330,0
631,29,,,very interesting study,NA,100,Graduated College,710418,1740609214298,1740608503880,female,indirect,,2,English ,,60b7e1bcfe148de04d17624b,67bf93dac0205ba2c93412a1,67bf8c566bb3f73a9e82acf8,21367,0
632,30,,,,1,NA,Higher degree,121774,1740609304415,1740609182641,male,indirect,,2,English,,62850a9d45988f3a749581e0,67bf9692592679e5408557e9,67bf8c566bb3f73a9e82acf8,12638,0
632,30,,,,NA,10,Higher degree,121774,1740609304415,1740609182641,male,indirect,,2,English,,62850a9d45988f3a749581e0,67bf9692592679e5408557e9,67bf8c566bb3f73a9e82acf8,8270,0
634,24,,,,10,NA,Graduated College,175194,1740609738617,1740609563423,male,indirect,,2,English Cantonese,,65b7c2e56265acff537653e1,67bf9819ef9cbd083dfb4776,67bf8c566bb3f73a9e82acf8,10971,0
634,24,,,,NA,40,Graduated College,175194,1740609738617,1740609563423,male,indirect,,2,English Cantonese,,65b7c2e56265acff537653e1,67bf9819ef9cbd083dfb4776,67bf8c566bb3f73a9e82acf8,12007,0
635,26,,,n/a,73,NA,Higher degree,118751,1740609917617,1740609798866,female,indirect,,2,English,,6011d2b8b124c219f57c707e,67bf9902a5554b70636d0a56,67bf8c566bb3f73a9e82acf8,12616,0
635,26,,,n/a,NA,100,Higher degree,118751,1740609917617,1740609798866,female,indirect,,2,English,,6011d2b8b124c219f57c707e,67bf9902a5554b70636d0a56,67bf8c566bb3f73a9e82acf8,3557,0
636,35,,,,90,NA,Higher degree,585564,1740610002703,1740609417139,female,indirect,,2,English and filipino  ,,67503a9fa3fe1ae63963a69e,67bf9753de7db7f20819f0e4,67bf8c566bb3f73a9e82acf8,25953,0
636,35,,,,NA,97,Higher degree,585564,1740610002703,1740609417139,female,indirect,,2,English and filipino  ,,67503a9fa3fe1ae63963a69e,67bf9753de7db7f20819f0e4,67bf8c566bb3f73a9e82acf8,22915,0
637,29,,,,40,NA,Higher degree,278030,1740610071966,1740609793936,male,indirect,,2,english,,5fbdc4f0784d3f225d8d96d1,67bf98fea94011b975ae33bd,67bf8c566bb3f73a9e82acf8,20944,0
637,29,,,,NA,65,Higher degree,278030,1740610071966,1740609793936,male,indirect,,2,english,,5fbdc4f0784d3f225d8d96d1,67bf98fea94011b975ae33bd,67bf8c566bb3f73a9e82acf8,11865,0
638,40,,,no comments,20,NA,Higher degree,472622,1740610646267,1740610173645,female,indirect,,2,English,,6099911160f3e9d0d94b18e8,67bf9a6e9b58eb1773b25717,67bf8c566bb3f73a9e82acf8,24989,0
638,40,,,no comments,NA,20,Higher degree,472622,1740610646267,1740610173645,female,indirect,,2,English,,6099911160f3e9d0d94b18e8,67bf9a6e9b58eb1773b25717,67bf8c566bb3f73a9e82acf8,17683,0
